{
  "resourceType": "Bundle",
  "id": "patientprofile1-medhistory",
  "type": "message",
  "entry": [
    {
      "fullUrl": "urn:uuid:e22a6ef2-db29-426d-91bb-bcdc4935b4f0",
      "resource": {
        "resourceType": "MessageHeader",
        "id": "example0",
        "meta": {
          "profile": [
            "http://fhir.health.nsw.gov.au/fhir/ehealth/itoc/v1.0/StructureDefinition/nswhealthitocmessageheader"
          ]
        },
        "text": {
          "status": "generated",
          "div": "<div xmlns=\"http://www.w3.org/1999/xhtml\"><p><b>Generated Narrative</b></p></div>"
        },
        "eventCoding": {
          "system": "http://fhir.health.nsw.gov.au/fhir/ehealth/itoc/v1.0/CodeSystem/messagetype",
          "code": "medication-history"
        },
        "source": {
          "name": "GH",
          "endpoint": "http://cerner.com"
        },
        "focus": [
          {
            "reference": "urn:uuid:c1643934-e8e0-4ca9-a30a-df11d4918308"
          }
        ]
      }
    },
    {
      "fullUrl": "urn:uuid:c1643934-e8e0-4ca9-a30a-df11d4918308",
      "resource": {
        "resourceType": "Patient",
        "id": "example0",
        "meta": {
          "profile": [
            "http://fhir.health.nsw.gov.au/fhir/ehealth/itoc/v1.0/StructureDefinition/nswhealthitocpatient"
          ]
        },
        "text": {
          "status": "generated",
          "div": "<div xmlns=\"http://www.w3.org/1999/xhtml\"><p><b>Generated Narrative</b></p></div>"
        },
        "extension": [
          {
            "url": "http://fhir.health.nsw.gov.au/fhir/ehealth/itoc/v1.0/StructureDefinition/biologicalsex",
            "valueCoding": {
              "system": "http://meteor.aihw.gov.au/content/index.phtml/itemId/635126",
              "code": "2",
              "display": "Female"
            }
          },
          {
            "url": "http://hl7.org.au/fhir/StructureDefinition/indigenous-status",
            "valueCoding": {
              "system": "https://healthterminologies.gov.au/fhir/CodeSystem/australian-indigenous-status-1",
              "code": "9",
              "display": "Not stated/inadequately described"
            }
          }
        ],
        "identifier": [
          {
            "extension": [
              {
                "url": "http://hl7.org.au/fhir/StructureDefinition/ihi-status",
                "valueCoding": {
                  "system": "https://healthterminologies.gov.au/fhir/CodeSystem/ihi-status-1",
                  "code": "Active",
                  "display": "Active"
                }
              },
              {
                "url": "http://hl7.org.au/fhir/StructureDefinition/ihi-record-status",
                "valueCoding": {
                  "system": "https://healthterminologies.gov.au/fhir/CodeSystem/ihi-record-status-1",
                  "code": "Verified",
                  "display": "Verified"
                }
              }
            ],
            "type": {
              "coding": [
                {
                  "system": "http://terminology.hl7.org/CodeSystem/v2-0203",
                  "code": "NI",
                  "display": "National unique individual identifier"
                }
              ],
              "text": "IHI"
            },
            "system": "http://ns.electronichealth.net.au/id/hi/ihi/1.0",
            "value": "8003608166690503"
          },
          {
            "type": {
              "coding": [
                {
                  "system": "http://terminology.hl7.org/CodeSystem/v2-0203",
                  "code": "MC",
                  "display": "Patient's Medicare Number"
                }
              ],
              "text": "Medicare Number"
            },
            "system": "http://ns.electronichealth.net.au/id/medicare-number",
            "value": "32788511952",
            "period": {
              "end": "2019-05"
            }
          },
          {
            "type": {
              "coding": [
                {
                  "system": "http://terminology.hl7.org/CodeSystem/v2-0203",
                  "code": "MR",
                  "display": "Medical record number"
                }
              ],
              "text": "Medical Record Number"
            },
            "system": "http://ns.health.nsw.gov.au/fhir/ehealth/itoc/id/mrn/1.0",
            "value": "123456789",
            "assigner": {
              "reference": "Organization/example0"
            }
          },
          {
            "type": {
              "text": "auID"
            },
            "system": "http://ns.health.nsw.gov.au/fhir/ehealth/itoc/id/auid/1.0",
            "value": "123456789"
          }
        ],
        "name": [
          {
            "family": "Franklin",
            "given": [
              "Stella"
            ]
          }
        ],
        "telecom": [
          {
            "system": "email",
            "value": "sfranklin@amail.com.au",
            "use": "work"
          }
        ],
        "gender": "female",
        "birthDate": "1985-10-14",
        "address": [
          {
            "use": "home",
            "line": [
              "31 Pacquola Street"
            ],
            "city": "Blacktown",
            "state": "NSW",
            "postalCode": "2148",
            "country": "Australia"
          }
        ]
      }
    },
    {
      "fullUrl": "urn:uuid:e7a1bd40-421d-4159-a7ad-b3446092ec4e",
      "resource": {
        "resourceType": "List",
        "id": "medhistory-list-example0",
        "text": {
          "status": "generated",
          "div": "<div xmlns=\"http://www.w3.org/1999/xhtml\"><p><b>Generated Narrative</b></p></div>"
        },
        "status": "current",
        "mode": "snapshot",
        "code": {
          "coding": [
            {
              "system": "https://healthterminologies.gov.au/fhir/CodeSystem/nctis-data-components-1",
              "code": "101.32009",
              "display": "Current Medicine"
            }
          ]
        },
        "subject": {
          "reference": "urn:uuid:c1643934-e8e0-4ca9-a30a-df11d4918308"
        },
        "date": "2019-10-29",
        "entry": [
          {
            "item": {
              "reference": "urn:uuid:db9c49b1-fa73-4059-9739-93a2806573fe"
            }
          },
          {
            "item": {
              "reference": "urn:uuid:7201b613-378e-4454-a0ff-b3701fdf9230"
            }
          }
        ]
      }
    },
    {
      "fullUrl": "urn:uuid:db9c49b1-fa73-4059-9739-93a2806573fe",
      "resource": {
        "resourceType": "MedicationStatement",
        "id": "patientprofile1-medhistory-example0",
        "meta": {
          "profile": [
            "http://fhir.health.nsw.gov.au/fhir/ehealth/itoc/v1.0/StructureDefinition/nswhealthitocmedicationstatement"
          ]
        },
        "text": {
          "status": "generated",
          "div": "<div xmlns=\"http://www.w3.org/1999/xhtml\"><p><b>Generated Narrative</b></p></div>"
        },
        "extension": [
          {
            "url": "http://hl7.org.au/fhir/StructureDefinition/medication-brand-name",
            "valueString": "Norvasc"
          },
          {
            "url": "http://hl7.org.au/fhir/StructureDefinition/medication-generic-name",
            "valueString": "Amlodipine"
          }
        ],
        "status": "active",
        "category": {
          "coding": [
            {
              "system": "http://terminology.hl7.org/CodeSystem/medication-statement-category",
              "code": "inpatient",
              "display": "Inpatient"
            }
          ]
        },
        "medicationCodeableConcept": {
          "coding": [
            {
              "extension": [
                {
                  "url": "http://hl7.org.au/fhir/StructureDefinition/medication-type",
                  "valueCoding": {
                    "system": "http://hl7.org.au/fhir/CodeSystem/medication-type",
                    "code": "UPDSF",
                    "display": "Unbranded product with strengths and form"
                  }
                }
              ],
              "system": "http://snomed.info/sct",
              "code": "23519011000036101",
              "display": "amlodipine 10 mg tablet"
            }
          ],
          "text": "Amlodipine 10 mg Tablet"
        },
        "subject": {
          "reference": "urn:uuid:c1643934-e8e0-4ca9-a30a-df11d4918308",
          "display": "Stella Franklin"
        },
        "dateAsserted": "2019-10-29",
        "informationSource": {
          "reference": "urn:uuid:a68058ed-c34c-4910-b537-4a2c3ed6c81a",
          "display": "Doctor Mayo"
        },
        "reasonCode": [
          {
            "coding": [
              {
                "system": "http://snomed.info/sct",
                "code": "38341003",
                "display": "Hypertensive disorder, systemic arterial"
              }
            ]
          }
        ],
        "note": [
          {
            "text": "The patient is not sure when exactly started taking the medication but is certain it's been over a year"
          }
        ],
        "dosage": [
          {
            "timing": {
              "repeat": {
                "frequency": 1,
                "period": 1,
                "periodUnit": "d",
                "when": [
                  "MORN"
                ]
              }
            },
            "route": {
              "coding": [
                {
                  "system": "http://snomed.info/sct",
                  "code": "26643006",
                  "display": "Oral use"
                }
              ],
              "text": "Oral"
            },
            "doseAndRate": [
              {
                "doseQuantity": {
                  "value": 10,
                  "unit": "mg"
                }
              }
            ]
          }
        ]
      }
    },
    {
      "fullUrl": "urn:uuid:7201b613-378e-4454-a0ff-b3701fdf9230",
      "resource": {
        "resourceType": "MedicationStatement",
        "id": "patientprofile1-medhistory-example1",
        "meta": {
          "profile": [
            "http://fhir.health.nsw.gov.au/fhir/ehealth/itoc/v1.0/StructureDefinition/nswhealthitocmedicationstatement"
          ]
        },
        "text": {
          "status": "generated",
          "div": "<div xmlns=\"http://www.w3.org/1999/xhtml\"><p><b>Generated Narrative</b></p></div>"
        },
        "extension": [
          {
            "url": "http://hl7.org.au/fhir/StructureDefinition/medication-brand-name",
            "valueString": "Ventolin"
          },
          {
            "url": "http://hl7.org.au/fhir/StructureDefinition/medication-generic-name",
            "valueString": "Salbutamol"
          }
        ],
        "status": "active",
        "category": {
          "text": "inpatient"
        },
        "medicationCodeableConcept": {
          "coding": [
            {
              "extension": [
                {
                  "url": "http://hl7.org.au/fhir/StructureDefinition/medication-type",
                  "valueCoding": {
                    "system": "http://hl7.org.au/fhir/CodeSystem/medication-type",
                    "code": "UPDSF",
                    "display": "Unbranded product with strengths and form"
                  }
                }
              ],
              "system": "http://snomed.info/sct",
              "code": "45078011000036105",
              "display": "salbutamol 200 microgram powder for inhalation, unit dose"
            }
          ],
          "text": "Salbutamol 200 microgram powder for inhalation, unit dose"
        },
        "subject": {
          "reference": "urn:uuid:c1643934-e8e0-4ca9-a30a-df11d4918308",
          "display": "Stella Franklin"
        },
        "effectivePeriod": {
          "start": "2018-01-01"
        },
        "dateAsserted": "2019-10-29",
        "informationSource": {
          "reference": "urn:uuid:a68058ed-c34c-4910-b537-4a2c3ed6c81a",
          "display": "Doctor Mayo"
        },
        "dosage": [
          {
            "timing": {
              "repeat": {
                "frequency": 1,
                "period": 4,
                "periodUnit": "h"
              }
            },
            "asNeededCodeableConcept": {
              "coding": [
                {
                  "system": "http://snomed.info/sct",
                  "code": "195967001",
                  "display": "Asthma"
                }
              ]
            },
            "route": {
              "coding": [
                {
                  "system": "http://snomed.info/sct",
                  "code": "26643006",
                  "display": "Oral use"
                }
              ],
              "text": "Oral"
            },
            "doseAndRate": [
              {
                "doseQuantity": {
                  "value": 200,
                  "unit": "microg"
                }
              }
            ]
          }
        ]
      }
    },
    {
      "fullUrl": "urn:uuid:a68058ed-c34c-4910-b537-4a2c3ed6c81a",
      "resource": {
        "resourceType": "Practitioner",
        "id": "example0",
        "meta": {
          "profile": [
            "http://fhir.health.nsw.gov.au/fhir/ehealth/itoc/v1.0/StructureDefinition/nswhealthitocpractitioner"
          ]
        },
        "text": {
          "status": "generated",
          "div": "<div xmlns=\"http://www.w3.org/1999/xhtml\"><p><b>Generated Narrative</b></p></div>"
        },
        "identifier": [
          {
            "type": {
              "coding": [
                {
                  "system": "http://terminology.hl7.org/CodeSystem/v2-0203",
                  "code": "NPI",
                  "display": "National provider identifier"
                }
              ],
              "text": "HPI-I"
            },
            "system": "http://ns.electronichealth.net.au/id/hi/hpii/1.0",
            "value": "8003619900015717"
          },
          {
            "type": {
              "coding": [
                {
                  "system": "http://terminology.hl7.org.au/CodeSystem/v2-0203",
                  "code": "PRES",
                  "display": "Prescriber Number"
                }
              ],
              "text": "Prescriber Number"
            },
            "system": "http://ns.electronichealth.net.au/id/medicare-prescriber-number",
            "value": "453221"
          },
          {
            "type": {
              "text": "StaffLink Number"
            },
            "system": "http://ns.health.nsw.gov.au/fhir/ehealth/itoc/id/stafflinkid/1.0",
            "value": "8234234234"
          }
        ],
        "active": true,
        "name": [
          {
            "family": "Mayo",
            "given": [
              "Helen"
            ],
            "prefix": [
              "Dr"
            ]
          }
        ],
        "telecom": [
          {
            "system": "email",
            "value": "helen.mayo@downunderhospital.com.au",
            "use": "work"
          }
        ],
        "address": [
          {
            "use": "work",
            "line": [
              "3 McGregor Street"
            ],
            "city": "Blacktown",
            "state": "NSW",
            "postalCode": "2148",
            "country": "Australia"
          }
        ],
        "qualification": [
          {
            "identifier": [
              {
                "type": {
                  "coding": [
                    {
                      "system": "http://terminology.hl7.org.au/CodeSystem/v2-0203",
                      "code": "AHPRA",
                      "display": "Australian Health Practitioner Regulation Agency Registration Number"
                    }
                  ],
                  "text": "AHPRA Registration Number"
                },
                "system": "http://hl7.org.au/id/ahpra-registration-number",
                "value": "MED0000932945"
              }
            ],
            "code": {
              "coding": [
                {
                  "system": "http://www.abs.gov.au/ausstats/abs@.nsf/mf/1220.0",
                  "code": "253111",
                  "display": "General Practitioner"
                }
              ],
              "text": "General Practitioner"
            },
            "issuer": {
              "display": "AHPRA"
            }
          }
        ]
      }
    }
  ]
}