{
  "resourceType": "Bundle",
  "id": "patientprofile1-medlist",
  "type": "message",
  "entry": [
    {
      "fullUrl": "urn:uuid:e22a6ef2-db29-426d-91bb-bcdc4935b4f0",
      "resource": {
        "resourceType": "MessageHeader",
        "id": "example0",
        "meta": {
          "profile": [
            "http://fhir.health.nsw.gov.au/fhir/ehealth/itoc/v1.0/StructureDefinition/nswhealthitocmessageheader"
          ]
        },
        "text": {
          "status": "generated",
          "div": "<div xmlns=\"http://www.w3.org/1999/xhtml\"><p><b>Generated Narrative</b></p></div>"
        },
        "eventCoding": {
          "system": "http://fhir.health.nsw.gov.au/fhir/ehealth/itoc/v1.0/CodeSystem/messagetype",
          "code": "medication-list"
        },
        "source": {
          "name": "GH",
          "endpoint": "http://cerner.com"
        },
        "focus": [
          {
            "reference": "urn:uuid:c1643934-e8e0-4ca9-a30a-df11d4918308"
          }
        ]
      }
    },
    {
      "fullUrl": "urn:uuid:c1643934-e8e0-4ca9-a30a-df11d4918308",
      "resource": {
        "resourceType": "Patient",
        "id": "example0",
        "meta": {
          "profile": [
            "http://fhir.health.nsw.gov.au/fhir/ehealth/itoc/v1.0/StructureDefinition/nswhealthitocpatient"
          ]
        },
        "text": {
          "status": "generated",
          "div": "<div xmlns=\"http://www.w3.org/1999/xhtml\"><p><b>Generated Narrative</b></p></div>"
        },
        "extension": [
          {
            "url": "http://fhir.health.nsw.gov.au/fhir/ehealth/itoc/v1.0/StructureDefinition/biologicalsex",
            "valueCoding": {
              "system": "http://meteor.aihw.gov.au/content/index.phtml/itemId/635126",
              "code": "2",
              "display": "Female"
            }
          },
          {
            "url": "http://hl7.org.au/fhir/StructureDefinition/indigenous-status",
            "valueCoding": {
              "system": "https://healthterminologies.gov.au/fhir/CodeSystem/australian-indigenous-status-1",
              "code": "9",
              "display": "Not stated/inadequately described"
            }
          }
        ],
        "identifier": [
          {
            "extension": [
              {
                "url": "http://hl7.org.au/fhir/StructureDefinition/ihi-status",
                "valueCoding": {
                  "system": "https://healthterminologies.gov.au/fhir/CodeSystem/ihi-status-1",
                  "code": "Active",
                  "display": "Active"
                }
              },
              {
                "url": "http://hl7.org.au/fhir/StructureDefinition/ihi-record-status",
                "valueCoding": {
                  "system": "https://healthterminologies.gov.au/fhir/CodeSystem/ihi-record-status-1",
                  "code": "Verified",
                  "display": "Verified"
                }
              }
            ],
            "type": {
              "coding": [
                {
                  "system": "http://terminology.hl7.org/CodeSystem/v2-0203",
                  "code": "NI",
                  "display": "National unique individual identifier"
                }
              ],
              "text": "IHI"
            },
            "system": "http://ns.electronichealth.net.au/id/hi/ihi/1.0",
            "value": "8003608166690503"
          },
          {
            "type": {
              "coding": [
                {
                  "system": "http://terminology.hl7.org/CodeSystem/v2-0203",
                  "code": "MC",
                  "display": "Patient's Medicare Number"
                }
              ],
              "text": "Medicare Number"
            },
            "system": "http://ns.electronichealth.net.au/id/medicare-number",
            "value": "32788511952",
            "period": {
              "end": "2021-05"
            }
          },
          {
            "type": {
              "coding": [
                {
                  "system": "http://terminology.hl7.org/CodeSystem/v2-0203",
                  "code": "MR",
                  "display": "Medical record number"
                }
              ],
              "text": "Medical Record Number"
            },
            "system": "http://ns.health.nsw.gov.au/fhir/ehealth/itoc/id/mrn/1.0",
            "value": "123456789",
            "assigner": {
              "reference": "Organization/example0"
            }
          },
          {
            "type": {
              "text": "auID"
            },
            "system": "http://ns.health.nsw.gov.au/fhir/ehealth/itoc/id/auid/1.0",
            "value": "123456789"
          }
        ],
        "name": [
          {
            "family": "Franklin",
            "given": [
              "Stella"
            ]
          }
        ],
        "telecom": [
          {
            "system": "email",
            "value": "sfranklin@amail.com.au",
            "use": "work"
          }
        ],
        "gender": "female",
        "birthDate": "1985-10-14",
        "address": [
          {
            "use": "home",
            "line": [
              "31 Pacquola Street"
            ],
            "city": "Blacktown",
            "state": "NSW",
            "postalCode": "2148",
            "country": "Australia"
          }
        ]
      }
    },
    {
      "fullUrl": "urn:uuid:e7a1bd40-421d-4159-a7ad-b3446092ec4e",
      "resource": {
        "resourceType": "List",
        "id": "medhistory-list-example0",
        "text": {
          "status": "generated",
          "div": "<div xmlns=\"http://www.w3.org/1999/xhtml\"><p><b>Generated Narrative</b></p></div>"
        },
        "status": "current",
        "mode": "snapshot",
        "code": {
          "coding": [
            {
              "system": "https://healthterminologies.gov.au/fhir/CodeSystem/nctis-data-components-1",
              "code": "101.32009",
              "display": "Current Medicine"
            }
          ]
        },
        "subject": {
          "reference": "urn:uuid:c1643934-e8e0-4ca9-a30a-df11d4918308"
        },
        "date": "2019-10-29",
        "entry": [
          {
            "item": {
              "reference": "urn:uuid:db9c49b1-fa73-4059-9739-93a2806573fe"
            }
          }
        ]
      }
    },
    {
      "fullUrl": "urn:uuid:db9c49b1-fa73-4059-9739-93a2806573fe",
      "resource": {
        "resourceType": "MedicationStatement",
        "id": "patientprofile1-medlist-example0",
        "meta": {
          "profile": [
            "http://fhir.health.nsw.gov.au/fhir/ehealth/itoc/v1.0/StructureDefinition/nswhealthitocmedicationstatement"
          ]
        },
        "text": {
          "status": "generated",
          "div": "<div xmlns=\"http://www.w3.org/1999/xhtml\"><p><b>Generated Narrative</b></p></div>"
        },
        "extension": [
          {
            "url": "http://hl7.org.au/fhir/StructureDefinition/medication-brand-name",
            "valueString": "Norvasc"
          },
          {
            "url": "http://hl7.org.au/fhir/StructureDefinition/medication-generic-name",
            "valueString": "Amlodipine"
          }
        ],
        "basedOn": [
          {
            "reference": "urn:uuid:2c861b14-f189-4c53-bd5c-dc2bdf46c065",
            "display": "Supporting Medication Order"
          }
        ],
        "status": "active",
        "category": {
          "coding": [
            {
              "system": "http://terminology.hl7.org/CodeSystem/medication-statement-category",
              "code": "inpatient",
              "display": "Inpatient"
            }
          ]
        },
        "medicationReference": {
          "reference": "urn:uuid:c0626753-5e6a-402e-8a84-34b695233835"
        },
        "subject": {
          "reference": "urn:uuid:c1643934-e8e0-4ca9-a30a-df11d4918308",
          "display": "Stella Franklin"
        },
        "dateAsserted": "2019-10-29",
        "informationSource": {
          "reference": "urn:uuid:a68058ed-c34c-4910-b537-4a2c3ed6c81a",
          "display": "Doctor Mayo"
        },
        "reasonCode": [
          {
            "coding": [
              {
                "system": "http://snomed.info/sct",
                "code": "38341003",
                "display": "Hypertensive disorder, systemic arterial"
              }
            ]
          }
        ],
        "dosage": [
          {
            "timing": {
              "repeat": {
                "frequency": 1,
                "period": 1,
                "periodUnit": "d",
                "when": [
                  "MORN"
                ]
              }
            },
            "route": {
              "coding": [
                {
                  "system": "http://snomed.info/sct",
                  "code": "26643006",
                  "display": "Oral use"
                }
              ],
              "text": "Oral"
            },
            "doseAndRate": [
              {
                "doseQuantity": {
                  "value": 10,
                  "unit": "mg"
                }
              }
            ]
          }
        ]
      }
    },
    {
      "fullUrl": "urn:uuid:a68058ed-c34c-4910-b537-4a2c3ed6c81a",
      "resource": {
        "resourceType": "Practitioner",
        "id": "example0",
        "meta": {
          "profile": [
            "http://fhir.health.nsw.gov.au/fhir/ehealth/itoc/v1.0/StructureDefinition/nswhealthitocpractitioner"
          ]
        },
        "text": {
          "status": "generated",
          "div": "<div xmlns=\"http://www.w3.org/1999/xhtml\"><p><b>Generated Narrative</b></p></div>"
        },
        "identifier": [
          {
            "type": {
              "coding": [
                {
                  "system": "http://terminology.hl7.org/CodeSystem/v2-0203",
                  "code": "NPI",
                  "display": "National provider identifier"
                }
              ],
              "text": "HPI-I"
            },
            "system": "http://ns.electronichealth.net.au/id/hi/hpii/1.0",
            "value": "8003619900015717"
          },
          {
            "type": {
              "coding": [
                {
                  "system": "http://terminology.hl7.org.au/CodeSystem/v2-0203",
                  "code": "PRES",
                  "display": "Prescriber Number"
                }
              ],
              "text": "Prescriber Number"
            },
            "system": "http://ns.electronichealth.net.au/id/medicare-prescriber-number",
            "value": "453221"
          },
          {
            "type": {
              "text": "StaffLink Number"
            },
            "system": "http://ns.health.nsw.gov.au/fhir/ehealth/itoc/id/stafflinkid/1.0",
            "value": "8234234234"
          }
        ],
        "active": true,
        "name": [
          {
            "family": "Mayo",
            "given": [
              "Helen"
            ],
            "prefix": [
              "Dr"
            ]
          }
        ],
        "telecom": [
          {
            "system": "email",
            "value": "helen.mayo@downunderhospital.com.au",
            "use": "work"
          }
        ],
        "address": [
          {
            "use": "work",
            "line": [
              "3 McGregor Street"
            ],
            "city": "Blacktown",
            "state": "NSW",
            "postalCode": "2148",
            "country": "Australia"
          }
        ],
        "qualification": [
          {
            "identifier": [
              {
                "type": {
                  "coding": [
                    {
                      "system": "http://terminology.hl7.org.au/CodeSystem/v2-0203",
                      "code": "AHPRA",
                      "display": "Australian Health Practitioner Regulation Agency Registration Number"
                    }
                  ],
                  "text": "AHPRA Registration Number"
                },
                "system": "http://hl7.org.au/id/ahpra-registration-number",
                "value": "MED0000932945"
              }
            ],
            "code": {
              "coding": [
                {
                  "system": "http://www.abs.gov.au/ausstats/abs@.nsf/mf/1220.0",
                  "code": "253111",
                  "display": "General Practitioner"
                }
              ],
              "text": "General Practitioner"
            },
            "issuer": {
              "display": "AHPRA"
            }
          }
        ]
      }
    },
    {
      "fullUrl": "urn:uuid:2c861b14-f189-4c53-bd5c-dc2bdf46c065",
      "resource": {
        "resourceType": "MedicationRequest",
        "id": "example0",
        "meta": {
          "profile": [
            "http://fhir.health.nsw.gov.au/fhir/ehealth/itoc/v1.0/StructureDefinition/nswhealthitocorder"
          ]
        },
        "text": {
          "status": "generated",
          "div": "<div xmlns=\"http://www.w3.org/1999/xhtml\"><p><b>Generated Narrative</b></p></div>"
        },
        "extension": [
          {
            "url": "http://hl7.org.au/fhir/StructureDefinition/medication-brand-name",
            "valueString": "APO"
          },
          {
            "url": "http://hl7.org.au/fhir/StructureDefinition/medication-generic-name",
            "valueString": "Amlodipine"
          },
          {
            "url": "http://fhir.health.nsw.gov.au/fhir/ehealth/itoc/v1.0/StructureDefinition/mostrecentadmin",
            "valueReference": {
              "reference": "urn:uuid:1bd306fb-3170-4607-88b7-746a5473ea6b"
            }
          }
        ],
        "identifier": [
          {
            "type": {
              "coding": [
                {
                  "system": "http://hl7.org.au/fhir/v2/0203",
                  "code": "LPN"
                }
              ],
              "text": "Local Prescription Number"
            },
            "system": "http://ns.health.nsw.gov.au/fhir/ehealth/itoc/id/scriptid",
            "value": "53720010",
            "assigner": {
              "display": "NSW Health"
            }
          }
        ],
        "status": "active",
        "intent": "order",
        "medicationCodeableConcept": {
          "coding": [
            {
              "system": "http://snomed.info/sct",
              "code": "23519011000036101",
              "display": "amlodipine 10 mg tablet"
            }
          ],
          "text": "Amlodipine 10 mg Tablet"
        },
        "subject": {
          "reference": "Patient/example0",
          "display": "Stella Franklin"
        },
        "authoredOn": "2018-06-14",
        "requester": {
          "reference": "Practitioner/example0",
          "display": "Doctor Mayo"
        },
        "reasonCode": [
          {
            "coding": [
              {
                "system": "http://snomed.info/sct",
                "code": "38341003",
                "display": "Hypertensive disorder, systemic arterial"
              }
            ]
          }
        ],
        "dosageInstruction": [
          {
            "timing": {
              "repeat": {
                "frequency": 1,
                "period": 1,
                "periodUnit": "d",
                "when": [
                  "MORN"
                ]
              }
            },
            "route": {
              "coding": [
                {
                  "system": "http://snomed.info/sct",
                  "code": "26643006",
                  "display": "Oral use"
                }
              ],
              "text": "Oral"
            },
            "doseAndRate": [
              {
                "doseQuantity": {
                  "value": 10,
                  "unit": "mg"
                }
              }
            ]
          }
        ],
        "dispenseRequest": {
          "validityPeriod": {
            "start": "2018-07-15",
            "end": "2019-07-15"
          },
          "numberOfRepeatsAllowed": 2,
          "quantity": {
            "value": 20,
            "unit": "Tab",
            "system": "http://terminology.hl7.org/CodeSystem/v3-orderableDrugForm",
            "code": "Tab"
          },
          "expectedSupplyDuration": {
            "value": 10,
            "unit": "days",
            "system": "http://unitsofmeasure.org",
            "code": "d"
          }
        }
      }
    },
    {
      "fullUrl": "urn:uuid:47aa6b1d-682a-401b-8518-4425dc99e5b1",
      "resource": {
        "resourceType": "MedicationRequest",
        "id": "example1",
        "meta": {
          "profile": [
            "http://fhir.health.nsw.gov.au/fhir/ehealth/itoc/v1.0/StructureDefinition/nswhealthitocorder"
          ]
        },
        "text": {
          "status": "generated",
          "div": "<div xmlns=\"http://www.w3.org/1999/xhtml\"><p><b>Generated Narrative</b></p></div>"
        },
        "extension": [
          {
            "url": "http://hl7.org.au/fhir/StructureDefinition/medication-brand-name",
            "valueString": "APO"
          },
          {
            "url": "http://hl7.org.au/fhir/StructureDefinition/medication-generic-name",
            "valueString": "Amlodipine"
          }
        ],
        "identifier": [
          {
            "type": {
              "coding": [
                {
                  "system": "http://hl7.org.au/fhir/v2/0203",
                  "code": "LPN"
                }
              ],
              "text": "Local Prescription Number"
            },
            "system": "http://ns.electronichealth.net.au/id/hpio-scoped/prescription/1.0/8003627500000328",
            "value": "53720010",
            "assigner": {
              "display": "NSW Health"
            }
          }
        ],
        "status": "active",
        "intent": "instance-order",
        "medicationCodeableConcept": {
          "coding": [
            {
              "system": "http://snomed.info/sct",
              "code": "23519011000036101",
              "display": "amlodipine 10 mg tablet"
            }
          ],
          "text": "Amlodipine 10 mg Tablet"
        },
        "subject": {
          "reference": "Patient/example0",
          "display": "Stella Franklin"
        },
        "authoredOn": "2018-06-14",
        "requester": {
          "reference": "Practitioner/example0",
          "display": "Doctor Mayo"
        },
        "reasonCode": [
          {
            "coding": [
              {
                "system": "http://snomed.info/sct",
                "code": "38341003",
                "display": "Hypertensive disorder, systemic arterial"
              }
            ]
          }
        ],
        "basedOn": [
          {
            "reference": "urn:uuid:2c861b14-f189-4c53-bd5c-dc2bdf46c065"
          }
        ],
        "dosageInstruction": [
          {
            "timing": {
              "event": [
                "2020-08-08T08:00:00.000Z"
              ]
            }
          }
        ]
      }
    },
    {
      "fullUrl": "urn:uuid:1bd306fb-3170-4607-88b7-746a5473ea6b",
      "resource": {
        "resourceType": "MedicationAdministration",
        "id": "patientprofile1-mar-example0",
        "meta": {
          "profile": [
            "http://fhir.health.nsw.gov.au/fhir/ehealth/itoc/v1.0/StructureDefinition/nswhealthitocmedicationadministration"
          ]
        },
        "text": {
          "status": "generated",
          "div": "<div xmlns=\"http://www.w3.org/1999/xhtml\"><p><b>Generated Narrative</b></p></div>"
        },
        "status": "completed",
        "category": {
          "text": "inpatient"
        },
        "medicationCodeableConcept": {
          "coding": [
            {
              "extension": [
                {
                  "url": "http://hl7.org.au/fhir/StructureDefinition/medication-type",
                  "valueCoding": {
                    "system": "http://hl7.org.au/fhir/CodeSystem/medication-type",
                    "code": "UPDSF",
                    "display": "Unbranded product with strengths and form"
                  }
                }
              ],
              "system": "http://snomed.info/sct",
              "code": "23519011000036101",
              "display": "amlodipine 10 mg tablet"
            }
          ],
          "text": "Amlodipine 10 mg Tablet"
        },
        "subject": {
          "reference": "Patient/example0",
          "display": "Stella Franklin"
        },
        "effectiveDateTime": "2018-05-15T08:00:00.000+00:00",
        "performer": [
          {
            "actor": {
              "reference": "Practitioner/example1",
              "display": "Joyce Smith (Registered Nurse)"
            }
          },
          {
            "function": {
              "coding": [
                {
                  "system": "http://terminology.hl7.org/CodeSystem/med-admin-perform-function",
                  "code": "witness",
                  "display": "Witness"
                }
              ]
            },
            "actor": {
              "reference": "Practitioner/example2",
              "display": "Kerry Jones (Registered Nurse)"
            }
          }
        ],
        "request": {
          "reference": "MedicationRequest/example0",
          "display": "Supporting Medication Order"
        },
        "dosage": {
          "route": {
            "coding": [
              {
                "system": "http://snomed.info/sct",
                "code": "26643006",
                "display": "Oral use"
              }
            ],
            "text": "Oral"
          },
          "dose": {
            "value": 10,
            "unit": "mg",
            "system": "http://unitsofmeasure.org",
            "code": "mg"
          }
        }
      }
    },
    {
      "fullUrl": "urn:uuid:c0626753-5e6a-402e-8a84-34b695233835",
      "resource": {
        "resourceType": "Medication",
        "id": "example0",
        "text": {
          "status": "generated",
          "div": "<div xmlns=\"http://www.w3.org/1999/xhtml\"><p><b>Generated Narrative</b></p></div>"
        },
        "extension": [
          {
            "url": "http://hl7.org.au/fhir/StructureDefinition/medication-brand-name",
            "valueString": "Norvasc"
          },
          {
            "url": "http://hl7.org.au/fhir/StructureDefinition/medication-generic-name",
            "valueString": "Amlodipine"
          }
        ],
        "code": {
          "coding": [
            {
              "extension": [
                {
                  "url": "http://hl7.org.au/fhir/StructureDefinition/medication-type",
                  "valueCoding": {
                    "system": "http://hl7.org.au/fhir/CodeSystem/medication-type",
                    "code": "UPDSF",
                    "display": "Unbranded product with strengths and form"
                  }
                }
              ],
              "system": "http://snomed.info/sct",
              "code": "23519011000036101",
              "display": "amlodipine 10 mg tablet"
            }
          ],
          "text": "Amlodipine 10 mg Tablet"
        },
        "form": {
          "text": "Tablet"
        }
      }
    }
  ]
}